File: Data/2024-12-06_test_data_miniRaman/polystyrene.tsv
DeviceSN	10030
LaserWavelength_nm	785
Exposure_ms	250
GainMultiplier	1
LaserCurrent_mA	250
LaserPower_mW	125.926
RepetitionCount	10
Wavenumber [cm^-1]	Raman [%]
400	0.628839
402	0.650101
404	0.666627
406	0.678914
408	0.681406
410	0.668784
412	0.646314
414	0.61886
416	0.5820117
418	0.540778
420	0.492246
422	0.44613
424	0.417947
426	0.399309
428	0.381832
430	0.367056
432	0.348764
434	0.329855
436	0.310099
438	0.291599
440	0.281705
442	0.275575
444	0.268456
446	0.254103
448	0.223984
450	0.194388
452	0.177141
454	0.168024
456	0.166698
458	0.161601
460	0.150611
462	0.138828
464	0.126837
466	0.118796
468	0.108636
470	0.0957826
472	0.0890174
474	0.0860799
476	0.0921212
478	0.102433
480	0.10559
482	0.0991657
484	0.0934744
486	0.094745
488	0.0963057
490	0.0967761
492	0.100329
494	0.108232
496	0.112321
498	0.109366
500	0.108633
502	0.111554
504	0.112247
506	0.109851
508	0.110966
510	0.116921
512	0.12585
514	0.132271
516	0.142289
518	0.154207
520	0.16092
522	0.166713
524	0.175816
526	0.190477
528	0.208785
530	0.227256
532	0.253626
534	0.282349
536	0.299856
538	0.310421
540	0.316626
542	0.323572
544	0.328798
546	0.324077
548	0.304023
550	0.28469
552	0.276852
554	0.275515
556	0.277046
558	0.273382
560	0.263891
562	0.254044
564	0.248543
566	0.245847
568	0.241319
570	0.232772
572	0.22348
574	0.20813
576	0.192933
578	0.180248
580	0.168228
582	0.16755
584	0.171114
586	0.170012
588	0.163154
590	0.158803
592	0.163024
594	0.170564
596	0.179113
598	0.188067
600	0.198252
602	0.205594
604	0.216328
606	0.251145
608	0.320403
610	0.444338
612	0.626234
614	0.914356
616	1.4473
618	1.80947
620	1.79989
622	1.68307
624	1.4883
626	1.08202
628	0.687786
630	0.503085
632	0.383465
634	0.296218
636	0.221775
638	0.162403
640	0.120962
642	0.0934493
644	0.0751799
646	0.0586535
648	0.0446781
650	0.041939
652	0.0410053
654	0.0397872
656	0.0346022
658	0.0237145
660	0.0138506
662	0.00666477
664	0.0114047
666	0.0238205
668	0.0344246
670	0.0359372
672	0.0311117
674	0.0253956
676	0.016594
678	0.00941434
680	0.0141985
682	0.0266989
684	0.0323255
686	0.0270054
688	0.0220315
690	0.0239526
692	0.0381372
694	0.0612975
696	0.0833663
698	0.1054
700	0.117006
702	0.112107
704	0.106154
706	0.103666
708	0.0892874
710	0.069025
712	0.0506215
714	0.0437533
716	0.0538082
718	0.0659806
720	0.0738566
722	0.0884969
724	0.121121
726	0.165956
728	0.218954
730	0.271313
732	0.329031
734	0.39742
736	0.454956
738	0.50614
740	0.559841
742	0.615522
744	0.663732
746	0.712355
748	0.769761
750	0.823917
752	0.872509
754	0.924591
756	0.955012
758	0.961491
760	0.956347
762	0.943556
764	0.9175
766	0.888757
768	0.855422
770	0.831137
772	0.828765
774	0.831324
776	0.837873
778	0.886222
780	0.974657
782	1.08568
784	1.2382
786	1.40736
788	1.61476
790	1.77586
792	1.81696
794	1.82967
796	1.81599
798	1.66243
800	1.43654
802	1.24951
804	1.06968
806	0.919697
808	0.798441
810	0.700088
812	0.617494
814	0.540639
816	0.464424
818	0.393599
820	0.353767
822	0.342725
824	0.336029
826	0.33535
828	0.351521
830	0.381847
832	0.430011
834	0.485509
836	0.514609
838	0.528102
840	0.534885
842	0.525936
844	0.504143
846	0.479303
848	0.446252
850	0.42121
852	0.407892
854	0.395482
856	0.384865
858	0.377595
860	0.379014
862	0.381269
864	0.380154
866	0.372473
868	0.361257
870	0.355577
872	0.348782
874	0.343136
876	0.339724
878	0.335194
880	0.331869
882	0.329843
884	0.329337
886	0.331124
888	0.337427
890	0.347308
892	0.364659
894	0.392436
896	0.442094
898	0.487569
900	0.49846
902	0.499416
904	0.49594
906	0.478567
908	0.44821
910	0.405318
912	0.355237
914	0.324204
916	0.301173
918	0.282117
920	0.264964
922	0.251155
924	0.248547
926	0.252418
928	0.258413
930	0.259134
932	0.258428
934	0.26618
936	0.281085
938	0.286343
940	0.287002
942	0.287947
944	0.287597
946	0.290976
948	0.297574
950	0.310178
952	0.325915
954	0.343368
956	0.359495
958	0.380183
960	0.420439
962	0.451233
964	0.470129
966	0.481815
968	0.498835
970	0.533677
972	0.589206
974	0.679336
976	0.78242
978	0.900762
980	1.06254
982	1.3062
984	1.65802
986	2.09091
988	2.64281
990	3.46651
992	5.1597
994	7.66247
996	10.391
998	13.4152
1000	14.354
1002	11.5584
1004	7.74963
1006	5.24966
1008	3.28138
1010	2.28433
1012	1.67904
1014	1.46457
1016	1.47189
1018	1.52076
1020	1.73679
1022	2.27769
1024	2.92193
1026	3.81186
1028	4.31106
1030	4.16682
1032	3.78527
1034	3.24507
1036	2.49407
1038	1.92959
1040	1.52984
1042	1.25293
1044	1.07377
1046	0.946654
1048	0.869239
1050	0.819947
1052	0.797336
1054	0.779594
1056	0.770568
1058	0.778699
1060	0.79694
1062	0.819699
1064	0.852471
1066	0.872128
1068	0.882857
1070	0.887892
1072	0.868407
1074	0.838314
1076	0.825341
1078	0.812904
1080	0.794273
1082	0.776915
1084	0.773506
1086	0.777979
1088	0.773974
1090	0.764354
1092	0.753601
1094	0.745206
1096	0.720687
1098	0.680911
1100	0.622444
1102	0.557414
1104	0.504709
1106	0.453311
1108	0.414078
1110	0.382995
1112	0.355946
1114	0.327638
1116	0.301371
1118	0.286953
1120	0.274351
1122	0.261358
1124	0.245502
1126	0.238575
1128	0.246838
1130	0.260228
1132	0.276646
1134	0.301528
1136	0.337104
1138	0.405441
1140	0.49584
1142	0.608771
1144	0.759822
1146	1.00761
1148	1.30167
1150	1.56072
1152	1.78594
1154	1.81605
1156	1.63024
1158	1.42136
1160	1.24172
1162	1.12133
1164	1.083197
1166	1.06682
1168	1.10138
1170	1.23055
1172	1.41117
1174	1.74207
1176	2.08551
1178	2.40021
1180	2.61146
1182	2.58551
1184	2.47492
1186	2.44699
1188	2.46255
1190	2.48896
1192	2.5464
1194	2.58902
1196	2.5913
1198	2.5763
1200	2.49175
1202	2.28821
1204	2.06297
1206	1.809
1208	1.5775
1210	1.36509
1212	1.1831
1214	1.0446
1216	0.940862
1218	0.865816
1220	0.804745
1222	0.745297
1224	0.687648
1226	0.639468
1228	0.592891
1230	0.54926
1232	0.519348
1234	0.496723
1236	0.477088
1238	0.459654
1240	0.454964
1242	0.453028
1244	0.450576
1246	0.444018
1248	0.43204
1250	0.411862
1252	0.399327
1254	0.394142
1256	0.38508
1258	0.382685
1260	0.386152
1262	0.384879
1264	0.365348
1266	0.350156
1268	0.35362
1270	0.362389
1272	0.368989
1274	0.372923
1276	0.375545
1278	0.373947
1280	0.370587
1282	0.379037
1284	0.399264
1286	0.424701
1288	0.448758
1290	0.479916
1292	0.512301
1294	0.542616
1296	0.567451
1298	0.586519
1300	0.60771
1302	0.612301
1304	0.611907
1306	0.623785
1308	0.650508
1310	0.676497
1312	0.713286
1314	0.748761
1316	0.775667
1318	0.804359
1320	0.855551
1322	0.905072
1324	0.909623
1326	0.905384
1328	0.902948
1330	0.885944
1332	0.854944
1334	0.793208
1336	0.727275
1338	0.667371
1340	0.612585
1342	0.564491
1344	0.53111
1346	0.515976
1348	0.502158
1350	0.477875
1352	0.457943
1354	0.455061
1356	0.456606
1358	0.460126
1360	0.463771
1362	0.456606
1364	0.439422
1366	0.425496
1368	0.419548
1370	0.407599
1372	0.383865
1374	0.35216
1376	0.327396
1378	0.299947
1380	0.2675
1382	0.235974
1384	0.217247
1386	0.197554
1388	0.182252
1390	0.168637
1392	0.157419
1394	0.14725
1396	0.141933
1398	0.141017
1400	0.137258
1402	0.131493
1404	0.129861
1406	0.131797
1408	0.130565
1410	0.128941
1412	0.127771
1414	0.121021
1416	0.110227
1418	0.122345
1420	0.154348
1422	0.16315
1424	0.159338
1426	0.180816
1428	0.243642
1430	0.312684
1432	0.383769
1434	0.461065
1436	0.545071
1438	0.637071
1440	0.735662
1442	0.838127
1444	0.936604
1446	1.01121
1448	1.01609
1450	0.997317
1452	0.929084
1454	0.756705
1456	0.595275
1458	0.453177
1460	0.364561
1462	0.294067
1464	0.235399
1466	0.196922
1468	0.177169
1470	0.156875
1472	0.133493
1474	0.111899
1476	0.103328
1478	0.111007
1480	0.117275
1482	0.113568
1484	0.113363
1486	0.124728
1488	0.140911
1490	0.146485
1492	0.150005
1494	0.150852
1496	0.133642
1498	0.113076
1500	0.103997
1502	0.103642
1504	0.0995635
1506	0.111399
1508	0.125608
1510	0.121431
1512	0.103575
1514	0.0846971
1516	0.0790867
1518	0.0876061
1520	0.097804
1522	0.10345
1524	0.107822
1526	0.103921
1528	0.098117
1530	0.0949857
1532	0.10145
1534	0.109914
1536	0.109943
1538	0.107187
1540	0.104958
1542	0.101415
1544	0.102654
1546	0.105678
1548	0.115762
1550	0.126631
1552	0.125812
1554	0.125124
1556	0.151584
1558	0.180113
1560	0.188642
1562	0.195073
1564	0.211327
1566	0.248935
1568	0.293586
1570	0.343979
1572	0.425974
1574	0.557863
1576	0.755228
1578	0.998349
1580	1.28478
1582	1.48955
1584	1.40177
1586	1.24485
1588	1.19037
1590	1.15902
1592	1.26086
1594	1.54014
1596	2.00068
1598	2.53682
1600	2.90466
1602	3.09948
1604	2.8084
1606	2.18961
1608	1.64455
1610	1.16942
1612	0.842634
1614	0.623677
1616	0.506154
1618	0.425573
1620	0.353917
1622	0.299049
1624	0.264416
1626	0.239924
1628	0.217553
1630	0.192058
1632	0.172308
1634	0.161826
1636	0.147699
1638	0.130063
1640	0.119764
1642	0.113249
1644	0.1053
1646	0.0982005
1648	0.0887351
1650	0.0835316
1652	0.0926172
1654	0.0951594
1656	0.0835109
1658	0.0761276
1660	0.0759518
1662	0.0829305
1664	0.096369
1666	0.103691
1668	0.0999216
1670	0.0913605
1672	0.0852463
1674	0.076297
1676	0.0712216
1678	0.0797724
1680	0.0911754
1682	0.087215
1684	0.0733089
1686	0.0812078
1688	0.0938606
1690	0.0869923
1692	0.0693088
1694	0.062049
1696	0.0589841
1698	0.054676
1700	0.0529503
1702	0.0545852
1704	0.054235
1706	0.051828
1708	0.0481381
1710	0.0592071
1712	0.0678276
1714	0.0597445
1716	0.0555944
1718	0.0591379
1720	0.0594513
1722	0.0589187
1724	0.0599809
1726	0.0639478
1728	0.0628063
1730	0.0522717
1732	0.0536949
1734	0.0597968
1736	0.0612263
1738	0.0621421
1740	0.0623088
1742	0.0572666
1744	0.0651063
1746	0.0677055
1748	0.0617332
1750	0.056298
1752	0.0463528
1754	0.0470781
1756	0.0490627
1758	0.0491016
1760	0.0538176
1762	0.0553966
1764	0.0521016
1766	0.0520795
1768	0.0599372
1770	0.0675027
1772	0.0689229
1774	0.060323
1776	0.0542005
1778	0.0575743
1780	0.0548139
1782	0.0403709
1784	0.044746
1786	0.0636649
1788	0.0674162
1790	0.0662289
1792	0.0546071
1794	0.0389134
1796	0.0509274
1798	0.0737315
1800	0.0712561
1802	0.0683383
1804	0.0639861
1806	0.0580006
1808	0.0591403
1810	0.0562036
1812	0.0545097
1814	0.0521329
1816	0.049395
1818	0.0505252
1820	0.052506
1822	0.0575962
1824	0.055307
1826	0.046914
1828	0.0461673
1830	0.0457049
1832	0.0435339
1834	0.0393235
1836	0.043501
1838	0.0477605
1840	0.0417721
1842	0.0489316
1844	0.0573457
1846	0.0651974
1848	0.0615267
1850	0.0579768
1852	0.0560113
1854	0.050123
1856	0.047015
1858	0.0491089
1860	0.0549434
1862	0.0475336
1864	0.0310329
1866	0.0337158
1868	0.0349103
1870	0.040746
1872	0.0597006
1874	0.0544137
1876	0.0432331
1878	0.04864363
1880	0.0482481
1882	0.0373689
1884	0.0410852
1886	0.0490686
1888	0.0367414
1890	0.0354467
1892	0.0332257
1894	0.0250537
1896	0.03021
1898	0.0318525
1900	0.0251337
1902	0.0413075
1904	0.0640168
1906	0.0507161
1908	0.0503026
1910	0.056464
1912	0.0505271
1914	0.0495768
1916	0.0521905
1918	0.0660478
1920	0.0758726
1922	0.0740429
1924	0.0704991
1926	0.0721939
1928	0.0752888
1930	0.0603301
1932	0.0475532
1934	0.0693705
1936	0.0728641
1938	0.0654218
1940	0.0649489
1942	0.055503
1944	0.0553473
1946	0.0545147
1948	0.0603143
1950	0.0635094
1952	0.0544951
1954	0.0505963
1956	0.047768
1958	0.0446998
1960	0.0520938
1962	0.0690963
1964	0.0744451
1966	0.0663952
1968	0.0638577
1970	0.0590134
1972	0.0543402
1974	0.0434593
1976	0.0493339
1978	0.0529549
1980	0.0629616
1982	0.0602475
1984	0.0476884
1986	0.0346135
1988	0.0347496
1990	0.0430161
1992	0.0443357
1994	0.032066
1996	0.0225225
1998	0.0355589
2000	0.0578905
2002	0.0614292
2004	0.0516742
2006	0.0502859
2008	0.0516426
2010	0.0543979
2012	0.0493098
2014	0.0462931
2016	0.0568883
2018	0.0628959
2020	0.0590729
2022	0.063536
2024	0.0679519
2026	0.0643778
2028	0.0402211
2030	0.0494013
2032	0.069712
2034	0.0663657
2036	0.0642721
2038	0.0590287
2040	0.0594478
2042	0.07139
2044	0.0566377
2046	0.0432276
2048	0.0523313
2050	0.0580742
2052	0.0634862
2054	0.0697918
2056	0.0603978
2058	0.0501585
2060	0.0647762
2062	0.0781054
2064	0.0681419
2066	0.0496305
2068	0.0397993
2070	0.0365039
2072	0.0266719
2074	0.0295499
2076	0.0410931
2078	0.0690231
2080	0.0603929
2082	0.0516854
2084	0.0811762
2086	0.0758321
2088	0.0577406
2090	0.0557542
2092	0.0491555
2094	0.0441779
2096	0.0520109
2098	0.068383
2100	0.0706289
2102	0.0608951
2104	0.0497674
2106	0.0602357
2108	0.0745395
2110	0.0667125
2112	0.05091
2114	0.0559593
2116	0.0489678
2118	0.0509395
2120	0.0697627
2122	0.064108
2124	0.0531166
2126	0.0468507
2128	0.0484635
2130	0.0518266
2132	0.0526752
2134	0.0665366
2136	0.0786346
2138	0.0656133
2140	0.0531921
2142	0.065553
2144	0.0593735
2146	0.0494251
2148	0.0497046
2150	0.045408
2152	0.06151
2154	0.0726538
2156	0.064159
2158	0.0504379
2160	0.0413426
2162	0.0660764
2164	0.0902284
2166	0.0938669
2168	0.0956333
2170	0.0671051
2172	0.0385526
2174	0.0326458
2176	0.0389198
2178	0.0589884
2180	0.0675691
2182	0.0683349
2184	0.063194
2186	0.0682262
2188	0.0807926
2190	0.0838349
2192	0.0709364
2194	0.0467754
2196	0.0403658
2198	0.0675892
2200	0.0773638
2202	0.0804019
2204	0.07656
2206	0.0716304
2208	0.0775296
2210	0.0934193
2212	0.0844172
2214	0.0734982
2216	0.0897001
2218	0.0832298
2220	0.0920119
2222	0.0811963
2224	0.0659536
2226	0.0641658
2228	0.0619092
2230	0.0587957
2232	0.0747995
2234	0.0370584
2236	0.0495219
2238	0.0608807
2240	0.0573281
2242	0.0777364
2244	0.0796706
2246	0.0751062
2248	0.0854125
2250	0.0868915
2252	0.0780007
2254	0.0650923
2256	0.0636411
2258	0.0622503
2260	0.0730068
2262	0.0600554
2264	0.0616597
2266	0.0655492
2268	0.0960471
2270	0.0440882
2272	0.0093393
2274	0.0385182
2276	0.0553483
2278	0.0637771
2280	0.0773247
2282	0.0669273
2284	0.0667326
2286	0.065517
2288	0.0583528
2290	0.0652768
2292	0.081217
2294	0.081343
2296	0.0656757
2298	0.0546725
2300	0.0608295
2302	0.0724884
2304	0.0626144
2306	0.070005
2308	0.055483
2310	0.0401326
2312	0.0926096
2314	0.0885989
2316	0.0890562
2318	0.0845956
2320	0.0841303
2322	0.104768
2324	0.123585
2326	0.107688
2328	0.0891991
2330	0.06971
2332	0.0816904
2334	0.0835363
2336	0.071819
2338	0.0851294
2340	0.0935351
2342	0.082085
2344	0.0832749
2346	0.126398
2348	0.119823
2350	0.0779507
2352	0.0905416
2354	0.100679
2356	0.0833315
2358	0.051243
2360	0.05092787
2362	0.0722597
2364	0.080374
2366	0.078119
2368	0.109296
2370	0.087226
2372	0.0943848
2374	0.113181
2376	0.117884
2378	0.093446
2380	0.0825741
2382	0.0758256
2384	0.104601
2386	0.115003
2388	0.0923472
2390	0.0957994
2392	0.107518
2394	0.0938864
2396	0.105845
2398	0.0934546
2400	0.0765816
2402	0.0589138
2404	0.0885727
2406	0.132108
2408	0.11431
2410	0.10854
2412	0.0919263
2414	0.0899471
2416	0.0804926
2418	0.109347
2420	0.145863
2422	0.116089
2424	0.123106
2426	0.134532
2428	0.0949906
2430	0.0660323
2432	0.0674399
2434	0.0997897
2436	0.101381
2438	0.10757
2440	0.101136
2442	0.127349
2444	0.131248
2446	0.0862715
2448	0.0977472
2450	0.0692873
2452	0.0588931
2454	0.0981235
2456	0.138221
2458	0.0842018
2460	0.0806364
2462	0.110012
2464	0.12025
2466	0.0936911
2468	0.112651
2470	0.130264
2472	0.135968
2474	0.117697
2476	0.146242
2478	0.0876022
2480	0.115817
2482	0.0878587
2484	0.11891
2486	0.137254
2488	0.1237543
2490	0.147461
2492	0.136587
2494	0.117214
2496	0.129775
2498	0.118143
2500	0.144111
2502	0.142961
2504	0.101386
2506	0.170348
2508	0.17089
2510	0.185113
2512	0.180384
2514	0.145541
2516	0.0732539
2518	0.08841113
2520	0.111981
2522	0.131886
2524	0.14697
2526	0.189871
2528	0.205932
2530	0.132289
2532	0.122156
2534	0.180464
2536	0.0911988
2538	0.0292917
2540	0.0659446
2542	0.124959
2544	0.130472
2546	0.165057
2548	0.174484
2550	0.180332
2552	0.198021
2554	0.122806
2556	0.0743799
2558	0.123852
2560	0.154867
2562	0.202287
2564	0.0964786
2566	0.125949
2568	0.156987
2570	0.167948
2572	0.192383
2574	0.281389
2576	0.131817
2578	0.0804147
2580	0.2348333
2582	0.158968
2584	0.120895
2586	0.235004
2588	0.382147
2590	0.409991
2592	0.274765
2594	0.12792
2596	0.0426676
2598	0.0690957
2600	0.239778